trial_number,block,n_back_level,sensory_condition,accuracy,reaction_time,participant_id,session
1,1,,,3.0,0.0,8,1
2,1,,,3.0,0.0,8,1
3,1,,,3.0,0.0,8,1
4,1,,,4.0,0.0,8,1
5,1,,,4.0,0.0,8,1
6,1,,,3.0,0.0,8,1
7,1,,,4.0,0.0,8,1
8,1,,,4.0,0.0,8,1
9,1,,,3.0,0.0,8,1
10,1,,,3.0,0.0,8,1
11,1,,,3.0,0.0,8,1
12,1,,,3.0,0.0,8,1
13,1,,,3.0,0.0,8,1
14,1,,,3.0,0.0,8,1
15,1,,,4.0,0.0,8,1
16,1,,,3.0,0.0,8,1
17,1,,,3.0,0.0,8,1
18,1,,,3.0,0.0,8,1
19,1,,,3.0,0.0,8,1
20,1,,,3.0,0.0,8,1
21,1,,,3.0,0.0,8,1
22,1,,,3.0,0.0,8,1
23,2,,,3.0,0.0,8,1
24,2,,,3.0,0.0,8,1
25,2,,,3.0,0.0,8,1
26,2,,,3.0,0.0,8,1
27,2,,,3.0,0.0,8,1
28,2,,,3.0,0.0,8,1
29,2,,,4.0,0.0,8,1
30,2,,,3.0,0.0,8,1
31,2,,,4.0,0.0,8,1
32,2,,,4.0,0.0,8,1
33,2,,,4.0,0.0,8,1
34,2,,,3.0,0.0,8,1
35,2,,,3.0,447.0,8,1
36,2,,,3.0,0.0,8,1
37,2,,,3.0,0.0,8,1
38,2,,,4.0,0.0,8,1
39,2,,,3.0,0.0,8,1
40,2,,,3.0,0.0,8,1
41,2,,,3.0,0.0,8,1
42,2,,,3.0,0.0,8,1
43,2,,,3.0,0.0,8,1
44,2,,,3.0,0.0,8,1
45,3,1.0,no_music,3.0,0.0,8,1
46,3,1.0,no_music,3.0,0.0,8,1
47,3,1.0,no_music,3.0,0.0,8,1
48,3,1.0,no_music,4.0,0.0,8,1
49,3,1.0,no_music,4.0,0.0,8,1
50,3,1.0,no_music,3.0,0.0,8,1
51,3,1.0,no_music,4.0,0.0,8,1
52,3,1.0,no_music,4.0,416.0,8,1
53,3,1.0,no_music,3.0,414.0,8,1
54,3,1.0,no_music,3.0,403.0,8,1
55,3,1.0,no_music,3.0,0.0,8,1
56,3,1.0,no_music,3.0,399.0,8,1
57,3,1.0,no_music,3.0,309.0,8,1
58,3,1.0,no_music,3.0,449.0,8,1
59,3,1.0,no_music,4.0,0.0,8,1
60,3,1.0,no_music,3.0,0.0,8,1
61,3,1.0,no_music,3.0,371.0,8,1
62,3,1.0,no_music,3.0,427.0,8,1
63,3,1.0,no_music,3.0,0.0,8,1
64,3,1.0,no_music,3.0,354.0,8,1
65,3,1.0,no_music,3.0,391.0,8,1
66,3,1.0,no_music,3.0,408.0,8,1
67,4,1.0,,3.0,0.0,8,1
68,4,1.0,,3.0,0.0,8,1
69,4,1.0,,3.0,0.0,8,1
70,4,1.0,,3.0,0.0,8,1
71,4,1.0,,3.0,0.0,8,1
72,4,1.0,,3.0,0.0,8,1
73,4,1.0,,4.0,0.0,8,1
74,4,1.0,,3.0,210.0,8,1
75,4,1.0,,4.0,0.0,8,1
76,4,1.0,,4.0,0.0,8,1
77,4,1.0,,4.0,0.0,8,1
78,4,1.0,,3.0,0.0,8,1
79,4,1.0,,3.0,0.0,8,1
80,4,1.0,,3.0,0.0,8,1
81,4,1.0,,3.0,0.0,8,1
82,4,1.0,,4.0,0.0,8,1
83,4,1.0,,3.0,0.0,8,1
84,4,1.0,,3.0,0.0,8,1
85,4,1.0,,3.0,0.0,8,1
86,4,1.0,,3.0,0.0,8,1
87,4,1.0,,3.0,0.0,8,1
88,4,1.0,,3.0,0.0,8,1
89,5,1.0,,3.0,0.0,8,1
90,5,1.0,,3.0,287.0,8,1
91,5,1.0,,3.0,334.0,8,1
92,5,1.0,,3.0,0.0,8,1
93,5,1.0,,3.0,0.0,8,1
94,5,1.0,,4.0,0.0,8,1
95,5,1.0,,3.0,0.0,8,1
96,5,1.0,,3.0,132.0,8,1
97,5,1.0,,3.0,0.0,8,1
98,5,1.0,,3.0,0.0,8,1
99,5,1.0,,3.0,0.0,8,1
100,5,1.0,,3.0,0.0,8,1
101,5,1.0,,3.0,0.0,8,1
102,5,1.0,,4.0,0.0,8,1
103,5,1.0,,3.0,0.0,8,1
104,5,1.0,,4.0,245.0,8,1
105,5,1.0,,3.0,0.0,8,1
106,5,1.0,,4.0,0.0,8,1
107,5,1.0,,4.0,0.0,8,1
108,5,1.0,,3.0,0.0,8,1
109,5,1.0,,3.0,0.0,8,1
110,5,1.0,,3.0,0.0,8,1
111,6,1.0,,3.0,0.0,8,1
112,6,1.0,,3.0,0.0,8,1
113,6,1.0,,3.0,0.0,8,1
114,6,1.0,,3.0,464.0,8,1
115,6,1.0,,3.0,0.0,8,1
116,6,1.0,,3.0,0.0,8,1
117,6,1.0,,3.0,0.0,8,1
118,6,1.0,,3.0,0.0,8,1
119,6,1.0,,4.0,0.0,8,1
120,6,1.0,,3.0,0.0,8,1
121,6,1.0,,4.0,0.0,8,1
122,6,1.0,,3.0,0.0,8,1
123,6,1.0,,4.0,0.0,8,1
124,6,1.0,,3.0,0.0,8,1
125,6,1.0,,3.0,0.0,8,1
126,6,1.0,,3.0,0.0,8,1
127,6,1.0,,3.0,0.0,8,1
128,6,1.0,,4.0,0.0,8,1
129,6,1.0,,3.0,0.0,8,1
130,6,1.0,,4.0,0.0,8,1
131,6,1.0,,3.0,0.0,8,1
132,6,1.0,,3.0,0.0,8,1
133,7,1.0,,3.0,0.0,8,1
134,7,1.0,,3.0,352.0,8,1
135,7,1.0,,3.0,0.0,8,1
136,7,1.0,,3.0,0.0,8,1
137,7,1.0,,3.0,0.0,8,1
138,7,1.0,,3.0,0.0,8,1
139,7,1.0,,4.0,0.0,8,1
140,7,1.0,,3.0,0.0,8,1
141,7,1.0,,3.0,0.0,8,1
142,7,1.0,,3.0,0.0,8,1
143,7,1.0,,3.0,0.0,8,1
144,7,1.0,,3.0,0.0,8,1
145,7,1.0,,4.0,0.0,8,1
146,7,1.0,,3.0,0.0,8,1
147,7,1.0,,3.0,0.0,8,1
148,7,1.0,,4.0,0.0,8,1
149,7,1.0,,3.0,0.0,8,1
150,7,1.0,,4.0,0.0,8,1
151,7,1.0,,4.0,0.0,8,1
152,7,1.0,,3.0,0.0,8,1
153,7,1.0,,3.0,55.0,8,1
154,7,1.0,,3.0,0.0,8,1
155,8,1.0,,3.0,0.0,8,1
156,8,1.0,,3.0,0.0,8,1
157,8,1.0,,3.0,0.0,8,1
158,8,1.0,,3.0,0.0,8,1
159,8,1.0,,4.0,440.0,8,1
160,8,1.0,,4.0,0.0,8,1
161,8,1.0,,3.0,0.0,8,1
162,8,1.0,,3.0,0.0,8,1
163,8,1.0,,3.0,0.0,8,1
164,8,1.0,,3.0,0.0,8,1
165,8,1.0,,4.0,0.0,8,1
166,8,1.0,,3.0,0.0,8,1
167,8,1.0,,3.0,0.0,8,1
168,8,1.0,,3.0,0.0,8,1
169,8,1.0,,3.0,0.0,8,1
170,8,1.0,,3.0,0.0,8,1
171,8,1.0,,3.0,0.0,8,1
172,8,1.0,,4.0,0.0,8,1
173,8,1.0,,3.0,0.0,8,1
174,8,1.0,,3.0,0.0,8,1
175,8,1.0,,4.0,0.0,8,1
176,8,1.0,,3.0,0.0,8,1
177,9,1.0,,3.0,0.0,8,1
178,9,1.0,,3.0,0.0,8,1
179,9,1.0,,3.0,0.0,8,1
180,9,1.0,,4.0,0.0,8,1
181,9,1.0,,3.0,417.0,8,1
182,9,1.0,,3.0,0.0,8,1
183,9,1.0,,3.0,0.0,8,1
184,9,1.0,,3.0,0.0,8,1
185,9,1.0,,3.0,412.0,8,1
186,9,1.0,,3.0,459.0,8,1
187,9,1.0,,4.0,0.0,8,1
188,9,1.0,,3.0,0.0,8,1
189,9,1.0,,3.0,0.0,8,1
190,9,1.0,,4.0,0.0,8,1
191,9,1.0,,4.0,0.0,8,1
192,9,1.0,,3.0,0.0,8,1
193,9,1.0,,4.0,0.0,8,1
194,9,1.0,,3.0,0.0,8,1
195,9,1.0,,3.0,0.0,8,1
196,9,1.0,,3.0,0.0,8,1
197,9,1.0,,3.0,0.0,8,1
198,9,1.0,,3.0,0.0,8,1
199,10,1.0,,3.0,0.0,8,1
200,10,1.0,,3.0,0.0,8,1
201,10,1.0,,3.0,0.0,8,1
202,10,1.0,,4.0,0.0,8,1
203,10,1.0,,4.0,0.0,8,1
204,10,1.0,,3.0,0.0,8,1
205,10,1.0,,3.0,0.0,8,1
206,10,1.0,,3.0,0.0,8,1
207,10,1.0,,3.0,0.0,8,1
208,10,1.0,,4.0,0.0,8,1
209,10,1.0,,3.0,0.0,8,1
210,10,1.0,,3.0,0.0,8,1
211,10,1.0,,4.0,0.0,8,1
212,10,1.0,,3.0,0.0,8,1
213,10,1.0,,3.0,0.0,8,1
214,10,1.0,,3.0,0.0,8,1
215,10,1.0,,4.0,0.0,8,1
216,10,1.0,,3.0,0.0,8,1
217,10,1.0,,3.0,0.0,8,1
218,10,1.0,,3.0,0.0,8,1
219,10,1.0,,3.0,0.0,8,1
220,10,1.0,,3.0,0.0,8,1
221,11,,,,,8,1
222,12,1.0,,3.0,0.0,8,1
223,12,1.0,,3.0,12.0,8,1
224,12,1.0,,3.0,153.0,8,1
225,12,1.0,,3.0,187.0,8,1
226,12,1.0,,3.0,0.0,8,1
227,12,1.0,,3.0,0.0,8,1
228,12,1.0,,3.0,0.0,8,1
229,12,1.0,,3.0,0.0,8,1
230,12,1.0,,3.0,0.0,8,1
231,12,1.0,,3.0,0.0,8,1
232,12,1.0,,3.0,0.0,8,1
233,12,1.0,,3.0,0.0,8,1
234,12,1.0,,4.0,0.0,8,1
235,12,1.0,,4.0,0.0,8,1
236,12,1.0,,4.0,0.0,8,1
237,12,1.0,,3.0,0.0,8,1
238,12,1.0,,4.0,0.0,8,1
239,12,1.0,,3.0,0.0,8,1
240,12,1.0,,3.0,0.0,8,1
241,12,1.0,,3.0,0.0,8,1
242,12,1.0,,3.0,0.0,8,1
243,12,1.0,,4.0,0.0,8,1
244,13,1.0,,3.0,0.0,8,1
245,13,1.0,,4.0,0.0,8,1
246,13,1.0,,3.0,0.0,8,1
247,13,1.0,,3.0,0.0,8,1
248,13,1.0,,4.0,0.0,8,1
249,13,1.0,,3.0,0.0,8,1
250,13,1.0,,3.0,0.0,8,1
251,13,1.0,,4.0,380.0,8,1
252,13,1.0,,3.0,0.0,8,1
253,13,1.0,,4.0,0.0,8,1
254,13,1.0,,4.0,0.0,8,1
255,13,1.0,,3.0,0.0,8,1
256,13,1.0,,3.0,0.0,8,1
257,13,1.0,,3.0,0.0,8,1
258,13,1.0,,3.0,0.0,8,1
259,13,1.0,,3.0,0.0,8,1
260,13,1.0,,3.0,0.0,8,1
261,13,1.0,,3.0,0.0,8,1
262,13,1.0,,3.0,0.0,8,1
263,13,1.0,,3.0,0.0,8,1
264,13,1.0,,4.0,0.0,8,1
265,13,1.0,,3.0,0.0,8,1
266,14,1.0,,3.0,0.0,8,1
267,14,1.0,,3.0,0.0,8,1
268,14,1.0,,3.0,0.0,8,1
269,14,1.0,,4.0,0.0,8,1
270,14,1.0,,3.0,0.0,8,1
271,14,1.0,,3.0,0.0,8,1
272,14,1.0,,4.0,0.0,8,1
273,14,1.0,,4.0,0.0,8,1
274,14,1.0,,3.0,0.0,8,1
275,14,1.0,,3.0,0.0,8,1
276,14,1.0,,4.0,0.0,8,1
277,14,1.0,,3.0,0.0,8,1
278,14,1.0,,3.0,0.0,8,1
279,14,1.0,,3.0,0.0,8,1
280,14,1.0,,3.0,0.0,8,1
281,14,1.0,,3.0,0.0,8,1
282,14,1.0,,3.0,0.0,8,1
283,14,1.0,,3.0,0.0,8,1
284,14,1.0,,3.0,0.0,8,1
285,14,1.0,,3.0,376.0,8,1
286,14,1.0,,4.0,0.0,8,1
287,14,1.0,,3.0,0.0,8,1
288,15,1.0,,3.0,0.0,8,1
289,15,1.0,,3.0,448.0,8,1
290,15,1.0,,3.0,422.0,8,1
291,15,1.0,,3.0,0.0,8,1
292,15,1.0,,3.0,0.0,8,1
293,15,1.0,,3.0,0.0,8,1
294,15,1.0,,3.0,0.0,8,1
295,15,1.0,,4.0,349.0,8,1
296,15,1.0,,4.0,0.0,8,1
297,15,1.0,,3.0,0.0,8,1
298,15,1.0,,4.0,0.0,8,1
299,15,1.0,,3.0,0.0,8,1
300,15,1.0,,3.0,0.0,8,1
301,15,1.0,,3.0,0.0,8,1
302,15,1.0,,3.0,0.0,8,1
303,15,1.0,,3.0,0.0,8,1
304,15,1.0,,4.0,0.0,8,1
305,15,1.0,,3.0,0.0,8,1
306,15,1.0,,4.0,0.0,8,1
307,15,1.0,,3.0,0.0,8,1
308,15,1.0,,3.0,0.0,8,1
309,15,1.0,,3.0,0.0,8,1
310,16,1.0,,3.0,0.0,8,1
311,16,1.0,,3.0,0.0,8,1
312,16,1.0,,3.0,0.0,8,1
313,16,1.0,,4.0,0.0,8,1
314,16,1.0,,4.0,275.0,8,1
315,16,1.0,,3.0,0.0,8,1
316,16,1.0,,3.0,246.0,8,1
317,16,1.0,,3.0,208.0,8,1
318,16,1.0,,3.0,265.0,8,1
319,16,1.0,,3.0,426.0,8,1
320,16,1.0,,3.0,281.0,8,1
321,16,1.0,,3.0,253.0,8,1
322,16,1.0,,3.0,355.0,8,1
323,16,1.0,,4.0,400.0,8,1
324,16,1.0,,4.0,408.0,8,1
325,16,1.0,,3.0,465.0,8,1
326,16,1.0,,3.0,401.0,8,1
327,16,1.0,,3.0,0.0,8,1
328,16,1.0,,4.0,0.0,8,1
329,16,1.0,,3.0,0.0,8,1
330,16,1.0,,3.0,0.0,8,1
331,16,1.0,,3.0,0.0,8,1
332,17,1.0,,3.0,0.0,8,1
333,17,1.0,,3.0,0.0,8,1
334,17,1.0,,3.0,0.0,8,1
335,17,1.0,,3.0,0.0,8,1
336,17,1.0,,4.0,0.0,8,1
337,17,1.0,,4.0,0.0,8,1
338,17,1.0,,3.0,0.0,8,1
339,17,1.0,,3.0,0.0,8,1
340,17,1.0,,3.0,0.0,8,1
341,17,1.0,,4.0,0.0,8,1
342,17,1.0,,3.0,0.0,8,1
343,17,1.0,,3.0,0.0,8,1
344,17,1.0,,3.0,0.0,8,1
345,17,1.0,,3.0,0.0,8,1
346,17,1.0,,3.0,0.0,8,1
347,17,1.0,,3.0,0.0,8,1
348,17,1.0,,4.0,0.0,8,1
349,17,1.0,,3.0,0.0,8,1
350,17,1.0,,3.0,0.0,8,1
351,17,1.0,,3.0,0.0,8,1
352,17,1.0,,3.0,0.0,8,1
353,17,1.0,,4.0,0.0,8,1
354,18,1.0,,3.0,0.0,8,1
355,18,1.0,,3.0,0.0,8,1
356,18,1.0,,3.0,0.0,8,1
357,18,1.0,,3.0,0.0,8,1
358,18,1.0,,3.0,0.0,8,1
359,18,1.0,,3.0,0.0,8,1
360,18,1.0,,3.0,0.0,8,1
361,18,1.0,,3.0,0.0,8,1
362,18,1.0,,3.0,0.0,8,1
363,18,1.0,,4.0,0.0,8,1
364,18,1.0,,4.0,0.0,8,1
365,18,1.0,,3.0,0.0,8,1
366,18,1.0,,3.0,0.0,8,1
367,18,1.0,,4.0,0.0,8,1
368,18,1.0,,3.0,0.0,8,1
369,18,1.0,,4.0,0.0,8,1
370,18,1.0,,3.0,0.0,8,1
371,18,1.0,,3.0,0.0,8,1
372,18,1.0,,3.0,0.0,8,1
373,18,1.0,,3.0,0.0,8,1
374,18,1.0,,4.0,0.0,8,1
375,18,1.0,,3.0,0.0,8,1
376,19,1.0,,3.0,0.0,8,1
377,19,1.0,,3.0,0.0,8,1
378,19,1.0,,3.0,0.0,8,1
379,19,1.0,,4.0,0.0,8,1
380,19,1.0,,3.0,0.0,8,1
381,19,1.0,,3.0,0.0,8,1
382,19,1.0,,4.0,0.0,8,1
383,19,1.0,,4.0,0.0,8,1
384,19,1.0,,3.0,0.0,8,1
385,19,1.0,,3.0,0.0,8,1
386,19,1.0,,4.0,0.0,8,1
387,19,1.0,,3.0,0.0,8,1
388,19,1.0,,3.0,0.0,8,1
389,19,1.0,,3.0,0.0,8,1
390,19,1.0,,3.0,0.0,8,1
391,19,1.0,,3.0,0.0,8,1
392,19,1.0,,3.0,0.0,8,1
393,19,1.0,,3.0,0.0,8,1
394,19,1.0,,3.0,0.0,8,1
395,19,1.0,,3.0,0.0,8,1
396,19,1.0,,4.0,0.0,8,1
397,19,1.0,,3.0,0.0,8,1
398,20,2.0,relax_music,3.0,0.0,8,1
399,20,2.0,relax_music,3.0,0.0,8,1
400,20,2.0,relax_music,3.0,420.0,8,1
401,20,2.0,relax_music,4.0,0.0,8,1
402,20,2.0,relax_music,4.0,0.0,8,1
403,20,2.0,relax_music,3.0,0.0,8,1
404,20,2.0,relax_music,4.0,0.0,8,1
405,20,2.0,relax_music,4.0,0.0,8,1
406,20,2.0,relax_music,3.0,0.0,8,1
407,20,2.0,relax_music,3.0,0.0,8,1
408,20,2.0,relax_music,3.0,0.0,8,1
409,20,2.0,relax_music,3.0,0.0,8,1
410,20,2.0,relax_music,3.0,0.0,8,1
411,20,2.0,relax_music,3.0,0.0,8,1
412,20,2.0,relax_music,4.0,0.0,8,1
413,20,2.0,relax_music,3.0,0.0,8,1
414,20,2.0,relax_music,3.0,0.0,8,1
415,20,2.0,relax_music,3.0,0.0,8,1
416,20,2.0,relax_music,3.0,0.0,8,1
417,20,2.0,relax_music,3.0,0.0,8,1
418,20,2.0,relax_music,3.0,0.0,8,1
419,20,2.0,relax_music,3.0,0.0,8,1
420,21,2.0,,3.0,0.0,8,1
421,21,2.0,,3.0,286.0,8,1
422,21,2.0,,3.0,251.0,8,1
423,21,2.0,,3.0,0.0,8,1
424,21,2.0,,3.0,0.0,8,1
425,21,2.0,,3.0,0.0,8,1
426,21,2.0,,4.0,0.0,8,1
427,21,2.0,,3.0,0.0,8,1
428,21,2.0,,4.0,0.0,8,1
429,21,2.0,,4.0,0.0,8,1
430,21,2.0,,4.0,0.0,8,1
431,21,2.0,,3.0,0.0,8,1
432,21,2.0,,3.0,0.0,8,1
433,21,2.0,,3.0,0.0,8,1
434,21,2.0,,3.0,0.0,8,1
435,21,2.0,,4.0,0.0,8,1
436,21,2.0,,3.0,0.0,8,1
437,21,2.0,,3.0,0.0,8,1
438,21,2.0,,3.0,0.0,8,1
439,21,2.0,,3.0,0.0,8,1
440,21,2.0,,3.0,0.0,8,1
441,21,2.0,,3.0,0.0,8,1
442,22,2.0,,3.0,0.0,8,1
443,22,2.0,,3.0,406.0,8,1
444,22,2.0,,3.0,0.0,8,1
445,22,2.0,,3.0,239.0,8,1
446,22,2.0,,3.0,0.0,8,1
447,22,2.0,,4.0,0.0,8,1
448,22,2.0,,3.0,0.0,8,1
449,22,2.0,,3.0,0.0,8,1
450,22,2.0,,3.0,0.0,8,1
451,22,2.0,,3.0,0.0,8,1
452,22,2.0,,3.0,0.0,8,1
453,22,2.0,,3.0,0.0,8,1
454,22,2.0,,3.0,0.0,8,1
455,22,2.0,,4.0,0.0,8,1
456,22,2.0,,3.0,0.0,8,1
457,22,2.0,,4.0,0.0,8,1
458,22,2.0,,3.0,0.0,8,1
459,22,2.0,,4.0,0.0,8,1
460,22,2.0,,4.0,0.0,8,1
461,22,2.0,,3.0,0.0,8,1
462,22,2.0,,3.0,0.0,8,1
463,22,2.0,,3.0,0.0,8,1
464,23,2.0,,3.0,0.0,8,1
465,23,2.0,,3.0,0.0,8,1
466,23,2.0,,3.0,0.0,8,1
467,23,2.0,,3.0,0.0,8,1
468,23,2.0,,3.0,0.0,8,1
469,23,2.0,,3.0,0.0,8,1
470,23,2.0,,3.0,0.0,8,1
471,23,2.0,,3.0,0.0,8,1
472,23,2.0,,4.0,0.0,8,1
473,23,2.0,,3.0,0.0,8,1
474,23,2.0,,4.0,0.0,8,1
475,23,2.0,,3.0,0.0,8,1
476,23,2.0,,4.0,0.0,8,1
477,23,2.0,,3.0,0.0,8,1
478,23,2.0,,3.0,0.0,8,1
479,23,2.0,,3.0,0.0,8,1
480,23,2.0,,3.0,0.0,8,1
481,23,2.0,,4.0,0.0,8,1
482,23,2.0,,3.0,0.0,8,1
483,23,2.0,,4.0,0.0,8,1
484,23,2.0,,3.0,0.0,8,1
485,23,2.0,,3.0,0.0,8,1
486,24,2.0,,3.0,0.0,8,1
487,24,2.0,,3.0,289.0,8,1
488,24,2.0,,3.0,0.0,8,1
489,24,2.0,,3.0,0.0,8,1
490,24,2.0,,3.0,0.0,8,1
491,24,2.0,,3.0,0.0,8,1
492,24,2.0,,4.0,0.0,8,1
493,24,2.0,,3.0,0.0,8,1
494,24,2.0,,3.0,0.0,8,1
495,24,2.0,,3.0,0.0,8,1
496,24,2.0,,3.0,0.0,8,1
497,24,2.0,,3.0,0.0,8,1
498,24,2.0,,4.0,0.0,8,1
499,24,2.0,,3.0,0.0,8,1
500,24,2.0,,3.0,0.0,8,1
501,24,2.0,,4.0,0.0,8,1
502,24,2.0,,3.0,0.0,8,1
503,24,2.0,,4.0,0.0,8,1
504,24,2.0,,4.0,0.0,8,1
505,24,2.0,,3.0,0.0,8,1
506,24,2.0,,3.0,0.0,8,1
507,24,2.0,,3.0,0.0,8,1
508,25,2.0,,3.0,0.0,8,1
509,25,2.0,,3.0,0.0,8,1
510,25,2.0,,3.0,0.0,8,1
511,25,2.0,,3.0,0.0,8,1
512,25,2.0,,4.0,0.0,8,1
513,25,2.0,,4.0,0.0,8,1
514,25,2.0,,3.0,0.0,8,1
515,25,2.0,,3.0,0.0,8,1
516,25,2.0,,3.0,0.0,8,1
517,25,2.0,,3.0,0.0,8,1
518,25,2.0,,4.0,0.0,8,1
519,25,2.0,,3.0,0.0,8,1
520,25,2.0,,3.0,0.0,8,1
521,25,2.0,,3.0,0.0,8,1
522,25,2.0,,3.0,0.0,8,1
523,25,2.0,,3.0,0.0,8,1
524,25,2.0,,3.0,0.0,8,1
525,25,2.0,,4.0,0.0,8,1
526,25,2.0,,3.0,0.0,8,1
527,25,2.0,,3.0,0.0,8,1
528,25,2.0,,4.0,0.0,8,1
529,25,2.0,,3.0,0.0,8,1
530,26,2.0,,3.0,0.0,8,1
531,26,2.0,,3.0,0.0,8,1
532,26,2.0,,3.0,0.0,8,1
533,26,2.0,,4.0,0.0,8,1
534,26,2.0,,3.0,0.0,8,1
535,26,2.0,,3.0,0.0,8,1
536,26,2.0,,3.0,0.0,8,1
537,26,2.0,,3.0,0.0,8,1
538,26,2.0,,3.0,0.0,8,1
539,26,2.0,,3.0,0.0,8,1
540,26,2.0,,4.0,0.0,8,1
541,26,2.0,,3.0,0.0,8,1
542,26,2.0,,3.0,0.0,8,1
543,26,2.0,,4.0,0.0,8,1
544,26,2.0,,4.0,0.0,8,1
545,26,2.0,,3.0,0.0,8,1
546,26,2.0,,4.0,0.0,8,1
547,26,2.0,,3.0,0.0,8,1
548,26,2.0,,3.0,0.0,8,1
549,26,2.0,,3.0,0.0,8,1
550,26,2.0,,3.0,0.0,8,1
551,26,2.0,,3.0,0.0,8,1
552,27,2.0,,3.0,0.0,8,1
553,27,2.0,,3.0,0.0,8,1
554,27,2.0,,3.0,0.0,8,1
555,27,2.0,,4.0,0.0,8,1
556,27,2.0,,4.0,0.0,8,1
557,27,2.0,,3.0,0.0,8,1
558,27,2.0,,3.0,0.0,8,1
559,27,2.0,,3.0,0.0,8,1
560,27,2.0,,3.0,0.0,8,1
561,27,2.0,,4.0,0.0,8,1
562,27,2.0,,3.0,0.0,8,1
563,27,2.0,,3.0,0.0,8,1
564,27,2.0,,4.0,0.0,8,1
565,27,2.0,,3.0,0.0,8,1
566,27,2.0,,3.0,0.0,8,1
567,27,2.0,,3.0,0.0,8,1
568,27,2.0,,4.0,0.0,8,1
569,27,2.0,,3.0,0.0,8,1
570,27,2.0,,3.0,0.0,8,1
571,27,2.0,,3.0,0.0,8,1
572,27,2.0,,3.0,0.0,8,1
573,27,2.0,,3.0,0.0,8,1
574,28,,,,,8,1
575,29,2.0,,3.0,0.0,8,1
576,29,2.0,,3.0,294.0,8,1
577,29,2.0,,3.0,243.0,8,1
578,29,2.0,,3.0,0.0,8,1
579,29,2.0,,3.0,0.0,8,1
580,29,2.0,,3.0,0.0,8,1
581,29,2.0,,3.0,0.0,8,1
582,29,2.0,,3.0,0.0,8,1
583,29,2.0,,3.0,0.0,8,1
584,29,2.0,,3.0,0.0,8,1
585,29,2.0,,3.0,0.0,8,1
586,29,2.0,,3.0,0.0,8,1
587,29,2.0,,4.0,0.0,8,1
588,29,2.0,,4.0,0.0,8,1
589,29,2.0,,4.0,0.0,8,1
590,29,2.0,,3.0,0.0,8,1
591,29,2.0,,4.0,0.0,8,1
592,29,2.0,,3.0,0.0,8,1
593,29,2.0,,3.0,0.0,8,1
594,29,2.0,,3.0,0.0,8,1
595,29,2.0,,3.0,0.0,8,1
596,29,2.0,,4.0,0.0,8,1
597,30,2.0,,3.0,0.0,8,1
598,30,2.0,,4.0,0.0,8,1
599,30,2.0,,3.0,0.0,8,1
600,30,2.0,,3.0,0.0,8,1
601,30,2.0,,4.0,0.0,8,1
602,30,2.0,,3.0,0.0,8,1
603,30,2.0,,3.0,0.0,8,1
604,30,2.0,,4.0,0.0,8,1
605,30,2.0,,3.0,0.0,8,1
606,30,2.0,,4.0,0.0,8,1
607,30,2.0,,4.0,0.0,8,1
608,30,2.0,,3.0,0.0,8,1
609,30,2.0,,3.0,0.0,8,1
610,30,2.0,,3.0,0.0,8,1
611,30,2.0,,3.0,0.0,8,1
612,30,2.0,,3.0,0.0,8,1
613,30,2.0,,3.0,0.0,8,1
614,30,2.0,,3.0,0.0,8,1
615,30,2.0,,3.0,0.0,8,1
616,30,2.0,,3.0,0.0,8,1
617,30,2.0,,4.0,0.0,8,1
618,30,2.0,,3.0,0.0,8,1
619,31,2.0,,3.0,0.0,8,1
620,31,2.0,,3.0,0.0,8,1
621,31,2.0,,3.0,0.0,8,1
622,31,2.0,,4.0,0.0,8,1
623,31,2.0,,3.0,0.0,8,1
624,31,2.0,,3.0,0.0,8,1
625,31,2.0,,4.0,0.0,8,1
626,31,2.0,,4.0,0.0,8,1
627,31,2.0,,3.0,0.0,8,1
628,31,2.0,,3.0,0.0,8,1
629,31,2.0,,4.0,0.0,8,1
630,31,2.0,,3.0,0.0,8,1
631,31,2.0,,3.0,0.0,8,1
632,31,2.0,,3.0,0.0,8,1
633,31,2.0,,3.0,0.0,8,1
634,31,2.0,,3.0,0.0,8,1
635,31,2.0,,3.0,0.0,8,1
636,31,2.0,,3.0,0.0,8,1
637,31,2.0,,3.0,0.0,8,1
638,31,2.0,,3.0,0.0,8,1
639,31,2.0,,4.0,0.0,8,1
640,31,2.0,,3.0,0.0,8,1
641,32,2.0,,3.0,0.0,8,1
642,32,2.0,,3.0,0.0,8,1
643,32,2.0,,3.0,0.0,8,1
644,32,2.0,,3.0,0.0,8,1
645,32,2.0,,3.0,0.0,8,1
646,32,2.0,,3.0,0.0,8,1
647,32,2.0,,3.0,0.0,8,1
648,32,2.0,,4.0,0.0,8,1
649,32,2.0,,4.0,0.0,8,1
650,32,2.0,,3.0,0.0,8,1
651,32,2.0,,4.0,0.0,8,1
652,32,2.0,,3.0,0.0,8,1
653,32,2.0,,3.0,0.0,8,1
654,32,2.0,,3.0,0.0,8,1
655,32,2.0,,3.0,0.0,8,1
656,32,2.0,,3.0,0.0,8,1
657,32,2.0,,4.0,0.0,8,1
658,32,2.0,,3.0,0.0,8,1
659,32,2.0,,4.0,0.0,8,1
660,32,2.0,,3.0,0.0,8,1
661,32,2.0,,3.0,0.0,8,1
662,32,2.0,,3.0,0.0,8,1
663,33,2.0,,3.0,0.0,8,1
664,33,2.0,,3.0,0.0,8,1
665,33,2.0,,3.0,0.0,8,1
666,33,2.0,,4.0,0.0,8,1
667,33,2.0,,4.0,0.0,8,1
668,33,2.0,,3.0,0.0,8,1
669,33,2.0,,3.0,0.0,8,1
670,33,2.0,,3.0,0.0,8,1
671,33,2.0,,3.0,0.0,8,1
672,33,2.0,,3.0,0.0,8,1
673,33,2.0,,3.0,0.0,8,1
674,33,2.0,,3.0,0.0,8,1
675,33,2.0,,3.0,0.0,8,1
676,33,2.0,,4.0,0.0,8,1
677,33,2.0,,4.0,0.0,8,1
678,33,2.0,,3.0,0.0,8,1
679,33,2.0,,3.0,0.0,8,1
680,33,2.0,,3.0,0.0,8,1
681,33,2.0,,4.0,0.0,8,1
682,33,2.0,,3.0,0.0,8,1
683,33,2.0,,3.0,0.0,8,1
684,33,2.0,,3.0,0.0,8,1
685,34,2.0,,3.0,0.0,8,1
686,34,2.0,,3.0,0.0,8,1
687,34,2.0,,3.0,0.0,8,1
688,34,2.0,,3.0,0.0,8,1
689,34,2.0,,4.0,0.0,8,1
690,34,2.0,,4.0,0.0,8,1
691,34,2.0,,3.0,0.0,8,1
692,34,2.0,,3.0,0.0,8,1
693,34,2.0,,3.0,0.0,8,1
694,34,2.0,,4.0,0.0,8,1
695,34,2.0,,3.0,0.0,8,1
696,34,2.0,,3.0,0.0,8,1
697,34,2.0,,3.0,0.0,8,1
698,34,2.0,,3.0,0.0,8,1
699,34,2.0,,3.0,0.0,8,1
700,34,2.0,,3.0,0.0,8,1
701,34,2.0,,4.0,0.0,8,1
702,34,2.0,,3.0,0.0,8,1
703,34,2.0,,3.0,0.0,8,1
704,34,2.0,,3.0,0.0,8,1
705,34,2.0,,3.0,0.0,8,1
706,34,2.0,,4.0,0.0,8,1
707,35,2.0,,3.0,0.0,8,1
708,35,2.0,,3.0,0.0,8,1
709,35,2.0,,3.0,0.0,8,1
710,35,2.0,,3.0,0.0,8,1
711,35,2.0,,3.0,0.0,8,1
712,35,2.0,,3.0,0.0,8,1
713,35,2.0,,3.0,0.0,8,1
714,35,2.0,,3.0,0.0,8,1
715,35,2.0,,3.0,0.0,8,1
716,35,2.0,,4.0,0.0,8,1
717,35,2.0,,4.0,0.0,8,1
718,35,2.0,,3.0,0.0,8,1
719,35,2.0,,3.0,0.0,8,1
720,35,2.0,,4.0,0.0,8,1
721,35,2.0,,3.0,0.0,8,1
722,35,2.0,,4.0,0.0,8,1
723,35,2.0,,3.0,0.0,8,1
724,35,2.0,,3.0,0.0,8,1
725,35,2.0,,3.0,0.0,8,1
726,35,2.0,,3.0,0.0,8,1
727,35,2.0,,4.0,0.0,8,1
728,35,2.0,,3.0,0.0,8,1
729,36,2.0,,3.0,0.0,8,1
730,36,2.0,,3.0,0.0,8,1
731,36,2.0,,3.0,0.0,8,1
732,36,2.0,,4.0,0.0,8,1
733,36,2.0,,3.0,0.0,8,1
734,36,2.0,,3.0,0.0,8,1
735,36,2.0,,4.0,0.0,8,1
736,36,2.0,,4.0,0.0,8,1
737,36,2.0,,3.0,399.0,8,1
738,36,2.0,,3.0,0.0,8,1
739,36,2.0,,4.0,0.0,8,1
740,36,2.0,,3.0,0.0,8,1
741,36,2.0,,3.0,0.0,8,1
742,36,2.0,,3.0,0.0,8,1
743,36,2.0,,3.0,0.0,8,1
744,36,2.0,,3.0,0.0,8,1
745,36,2.0,,3.0,0.0,8,1
746,36,2.0,,3.0,0.0,8,1
747,36,2.0,,3.0,0.0,8,1
748,36,2.0,,3.0,0.0,8,1
749,36,2.0,,4.0,0.0,8,1
750,36,2.0,,3.0,0.0,8,1
751,37,3.0,stress_music,3.0,0.0,8,1
752,37,3.0,stress_music,3.0,0.0,8,1
753,37,3.0,stress_music,3.0,0.0,8,1
754,37,3.0,stress_music,3.0,0.0,8,1
755,37,3.0,stress_music,3.0,0.0,8,1
756,37,3.0,stress_music,4.0,0.0,8,1
757,37,3.0,stress_music,3.0,0.0,8,1
758,37,3.0,stress_music,3.0,0.0,8,1
759,37,3.0,stress_music,3.0,0.0,8,1
760,37,3.0,stress_music,4.0,0.0,8,1
761,37,3.0,stress_music,4.0,0.0,8,1
762,37,3.0,stress_music,3.0,0.0,8,1
763,37,3.0,stress_music,3.0,0.0,8,1
764,37,3.0,stress_music,4.0,0.0,8,1
765,37,3.0,stress_music,4.0,0.0,8,1
766,37,3.0,stress_music,3.0,402.0,8,1
767,37,3.0,stress_music,3.0,0.0,8,1
768,37,3.0,stress_music,3.0,0.0,8,1
769,37,3.0,stress_music,3.0,0.0,8,1
770,37,3.0,stress_music,3.0,304.0,8,1
771,37,3.0,stress_music,3.0,429.0,8,1
772,37,3.0,stress_music,3.0,0.0,8,1
773,38,3.0,,3.0,0.0,8,1
774,38,3.0,,3.0,231.0,8,1
775,38,3.0,,3.0,0.0,8,1
776,38,3.0,,3.0,0.0,8,1
777,38,3.0,,3.0,0.0,8,1
778,38,3.0,,3.0,0.0,8,1
779,38,3.0,,3.0,0.0,8,1
780,38,3.0,,3.0,0.0,8,1
781,38,3.0,,3.0,0.0,8,1
782,38,3.0,,3.0,0.0,8,1
783,38,3.0,,3.0,0.0,8,1
784,38,3.0,,3.0,0.0,8,1
785,38,3.0,,4.0,0.0,8,1
786,38,3.0,,4.0,0.0,8,1
787,38,3.0,,3.0,0.0,8,1
788,38,3.0,,3.0,0.0,8,1
789,38,3.0,,3.0,0.0,8,1
790,38,3.0,,3.0,0.0,8,1
791,38,3.0,,3.0,0.0,8,1
792,38,3.0,,4.0,0.0,8,1
793,38,3.0,,4.0,0.0,8,1
794,38,3.0,,4.0,0.0,8,1
795,39,3.0,,3.0,0.0,8,1
796,39,3.0,,3.0,0.0,8,1
797,39,3.0,,3.0,0.0,8,1
798,39,3.0,,4.0,0.0,8,1
799,39,3.0,,4.0,0.0,8,1
800,39,3.0,,4.0,0.0,8,1
801,39,3.0,,4.0,0.0,8,1
802,39,3.0,,3.0,0.0,8,1
803,39,3.0,,3.0,0.0,8,1
804,39,3.0,,3.0,0.0,8,1
805,39,3.0,,3.0,0.0,8,1
806,39,3.0,,3.0,0.0,8,1
807,39,3.0,,3.0,0.0,8,1
808,39,3.0,,3.0,0.0,8,1
809,39,3.0,,3.0,0.0,8,1
810,39,3.0,,3.0,0.0,8,1
811,39,3.0,,4.0,0.0,8,1
812,39,3.0,,3.0,0.0,8,1
813,39,3.0,,3.0,0.0,8,1
814,39,3.0,,3.0,0.0,8,1
815,39,3.0,,3.0,0.0,8,1
816,39,3.0,,3.0,0.0,8,1
817,40,3.0,,3.0,0.0,8,1
818,40,3.0,,3.0,358.0,8,1
819,40,3.0,,3.0,0.0,8,1
820,40,3.0,,3.0,0.0,8,1
821,40,3.0,,4.0,0.0,8,1
822,40,3.0,,3.0,0.0,8,1
823,40,3.0,,3.0,0.0,8,1
824,40,3.0,,3.0,0.0,8,1
825,40,3.0,,3.0,0.0,8,1
826,40,3.0,,3.0,0.0,8,1
827,40,3.0,,4.0,0.0,8,1
828,40,3.0,,3.0,0.0,8,1
829,40,3.0,,3.0,0.0,8,1
830,40,3.0,,3.0,0.0,8,1
831,40,3.0,,3.0,0.0,8,1
832,40,3.0,,3.0,0.0,8,1
833,40,3.0,,3.0,0.0,8,1
834,40,3.0,,4.0,0.0,8,1
835,40,3.0,,3.0,0.0,8,1
836,40,3.0,,4.0,0.0,8,1
837,40,3.0,,4.0,0.0,8,1
838,40,3.0,,3.0,0.0,8,1
839,41,3.0,,3.0,0.0,8,1
840,41,3.0,,4.0,0.0,8,1
841,41,3.0,,3.0,0.0,8,1
842,41,3.0,,3.0,0.0,8,1
843,41,3.0,,3.0,0.0,8,1
844,41,3.0,,3.0,0.0,8,1
845,41,3.0,,3.0,0.0,8,1
846,41,3.0,,3.0,0.0,8,1
847,41,3.0,,4.0,0.0,8,1
848,41,3.0,,4.0,0.0,8,1
849,41,3.0,,3.0,0.0,8,1
850,41,3.0,,3.0,0.0,8,1
851,41,3.0,,3.0,0.0,8,1
852,41,3.0,,4.0,0.0,8,1
853,41,3.0,,3.0,0.0,8,1
854,41,3.0,,4.0,0.0,8,1
855,41,3.0,,3.0,0.0,8,1
856,41,3.0,,3.0,0.0,8,1
857,41,3.0,,3.0,0.0,8,1
858,41,3.0,,3.0,0.0,8,1
859,41,3.0,,3.0,0.0,8,1
860,41,3.0,,3.0,0.0,8,1
861,42,3.0,,3.0,0.0,8,1
862,42,3.0,,3.0,0.0,8,1
863,42,3.0,,3.0,0.0,8,1
864,42,3.0,,3.0,0.0,8,1
865,42,3.0,,3.0,0.0,8,1
866,42,3.0,,3.0,0.0,8,1
867,42,3.0,,3.0,0.0,8,1
868,42,3.0,,4.0,0.0,8,1
869,42,3.0,,4.0,0.0,8,1
870,42,3.0,,3.0,0.0,8,1
871,42,3.0,,3.0,0.0,8,1
872,42,3.0,,3.0,0.0,8,1
873,42,3.0,,4.0,0.0,8,1
874,42,3.0,,4.0,0.0,8,1
875,42,3.0,,3.0,0.0,8,1
876,42,3.0,,3.0,0.0,8,1
877,42,3.0,,3.0,0.0,8,1
878,42,3.0,,4.0,0.0,8,1
879,42,3.0,,3.0,0.0,8,1
880,42,3.0,,3.0,0.0,8,1
881,42,3.0,,3.0,0.0,8,1
882,42,3.0,,3.0,0.0,8,1
883,43,3.0,,3.0,0.0,8,1
884,43,3.0,,3.0,0.0,8,1
885,43,3.0,,3.0,0.0,8,1
886,43,3.0,,3.0,0.0,8,1
887,43,3.0,,3.0,0.0,8,1
888,43,3.0,,3.0,0.0,8,1
889,43,3.0,,3.0,0.0,8,1
890,43,3.0,,4.0,0.0,8,1
891,43,3.0,,3.0,0.0,8,1
892,43,3.0,,3.0,0.0,8,1
893,43,3.0,,4.0,0.0,8,1
894,43,3.0,,4.0,0.0,8,1
895,43,3.0,,3.0,0.0,8,1
896,43,3.0,,3.0,0.0,8,1
897,43,3.0,,4.0,0.0,8,1
898,43,3.0,,3.0,0.0,8,1
899,43,3.0,,3.0,0.0,8,1
900,43,3.0,,3.0,0.0,8,1
901,43,3.0,,3.0,0.0,8,1
902,43,3.0,,3.0,0.0,8,1
903,43,3.0,,4.0,0.0,8,1
904,43,3.0,,3.0,0.0,8,1
905,44,3.0,,3.0,0.0,8,1
906,44,3.0,,3.0,0.0,8,1
907,44,3.0,,3.0,0.0,8,1
908,44,3.0,,3.0,0.0,8,1
909,44,3.0,,3.0,0.0,8,1
910,44,3.0,,3.0,0.0,8,1
911,44,3.0,,3.0,0.0,8,1
912,44,3.0,,3.0,0.0,8,1
913,44,3.0,,3.0,0.0,8,1
914,44,3.0,,4.0,0.0,8,1
915,44,3.0,,4.0,0.0,8,1
916,44,3.0,,3.0,0.0,8,1
917,44,3.0,,3.0,0.0,8,1
918,44,3.0,,3.0,0.0,8,1
919,44,3.0,,4.0,0.0,8,1
920,44,3.0,,3.0,0.0,8,1
921,44,3.0,,3.0,0.0,8,1
922,44,3.0,,4.0,0.0,8,1
923,44,3.0,,3.0,0.0,8,1
924,44,3.0,,3.0,0.0,8,1
925,44,3.0,,3.0,0.0,8,1
926,44,3.0,,4.0,0.0,8,1
927,45,,,,,8,1
928,46,3.0,,3.0,0.0,8,1
929,46,3.0,,4.0,0.0,8,1
930,46,3.0,,3.0,0.0,8,1
931,46,3.0,,3.0,0.0,8,1
932,46,3.0,,3.0,0.0,8,1
933,46,3.0,,4.0,0.0,8,1
934,46,3.0,,3.0,0.0,8,1
935,46,3.0,,4.0,0.0,8,1
936,46,3.0,,3.0,0.0,8,1
937,46,3.0,,3.0,0.0,8,1
938,46,3.0,,3.0,0.0,8,1
939,46,3.0,,3.0,0.0,8,1
940,46,3.0,,3.0,0.0,8,1
941,46,3.0,,3.0,0.0,8,1
942,46,3.0,,4.0,0.0,8,1
943,46,3.0,,4.0,0.0,8,1
944,46,3.0,,3.0,0.0,8,1
945,46,3.0,,3.0,0.0,8,1
946,46,3.0,,3.0,0.0,8,1
947,46,3.0,,3.0,0.0,8,1
948,46,3.0,,3.0,0.0,8,1
949,46,3.0,,3.0,0.0,8,1
950,47,3.0,,3.0,0.0,8,1
951,47,3.0,,3.0,376.0,8,1
952,47,3.0,,3.0,0.0,8,1
953,47,3.0,,3.0,0.0,8,1
954,47,3.0,,3.0,0.0,8,1
955,47,3.0,,4.0,0.0,8,1
956,47,3.0,,3.0,0.0,8,1
957,47,3.0,,3.0,0.0,8,1
958,47,3.0,,3.0,0.0,8,1
959,47,3.0,,3.0,0.0,8,1
960,47,3.0,,3.0,0.0,8,1
961,47,3.0,,3.0,0.0,8,1
962,47,3.0,,3.0,0.0,8,1
963,47,3.0,,3.0,0.0,8,1
964,47,3.0,,3.0,0.0,8,1
965,47,3.0,,3.0,0.0,8,1
966,47,3.0,,4.0,0.0,8,1
967,47,3.0,,3.0,0.0,8,1
968,47,3.0,,4.0,0.0,8,1
969,47,3.0,,3.0,0.0,8,1
970,47,3.0,,4.0,0.0,8,1
971,47,3.0,,4.0,0.0,8,1
972,48,3.0,,3.0,0.0,8,1
973,48,3.0,,3.0,0.0,8,1
974,48,3.0,,3.0,0.0,8,1
975,48,3.0,,3.0,0.0,8,1
976,48,3.0,,4.0,0.0,8,1
977,48,3.0,,4.0,0.0,8,1
978,48,3.0,,3.0,0.0,8,1
979,48,3.0,,3.0,0.0,8,1
980,48,3.0,,3.0,0.0,8,1
981,48,3.0,,3.0,0.0,8,1
982,48,3.0,,3.0,0.0,8,1
983,48,3.0,,3.0,0.0,8,1
984,48,3.0,,3.0,0.0,8,1
985,48,3.0,,3.0,0.0,8,1
986,48,3.0,,3.0,0.0,8,1
987,48,3.0,,3.0,0.0,8,1
988,48,3.0,,4.0,0.0,8,1
989,48,3.0,,3.0,0.0,8,1
990,48,3.0,,4.0,0.0,8,1
991,48,3.0,,3.0,0.0,8,1
992,48,3.0,,4.0,0.0,8,1
993,48,3.0,,3.0,0.0,8,1
994,49,3.0,,3.0,0.0,8,1
995,49,3.0,,3.0,0.0,8,1
996,49,3.0,,3.0,0.0,8,1
997,49,3.0,,3.0,0.0,8,1
998,49,3.0,,3.0,0.0,8,1
999,49,3.0,,3.0,0.0,8,1
1000,49,3.0,,3.0,0.0,8,1
1001,49,3.0,,3.0,0.0,8,1
1002,49,3.0,,3.0,0.0,8,1
1003,49,3.0,,4.0,0.0,8,1
1004,49,3.0,,4.0,0.0,8,1
1005,49,3.0,,3.0,0.0,8,1
1006,49,3.0,,3.0,0.0,8,1
1007,49,3.0,,3.0,0.0,8,1
1008,49,3.0,,3.0,0.0,8,1
1009,49,3.0,,3.0,0.0,8,1
1010,49,3.0,,4.0,0.0,8,1
1011,49,3.0,,3.0,0.0,8,1
1012,49,3.0,,4.0,0.0,8,1
1013,49,3.0,,3.0,0.0,8,1
1014,49,3.0,,4.0,0.0,8,1
1015,49,3.0,,3.0,0.0,8,1
1016,50,3.0,,3.0,0.0,8,1
1017,50,3.0,,3.0,412.0,8,1
1018,50,3.0,,3.0,0.0,8,1
1019,50,3.0,,3.0,0.0,8,1
1020,50,3.0,,3.0,0.0,8,1
1021,50,3.0,,3.0,0.0,8,1
1022,50,3.0,,4.0,0.0,8,1
1023,50,3.0,,3.0,0.0,8,1
1024,50,3.0,,3.0,0.0,8,1
1025,50,3.0,,3.0,0.0,8,1
1026,50,3.0,,3.0,0.0,8,1
1027,50,3.0,,4.0,0.0,8,1
1028,50,3.0,,3.0,0.0,8,1
1029,50,3.0,,3.0,0.0,8,1
1030,50,3.0,,3.0,0.0,8,1
1031,50,3.0,,3.0,0.0,8,1
1032,50,3.0,,3.0,0.0,8,1
1033,50,3.0,,3.0,0.0,8,1
1034,50,3.0,,4.0,0.0,8,1
1035,50,3.0,,4.0,0.0,8,1
1036,50,3.0,,3.0,0.0,8,1
1037,50,3.0,,4.0,0.0,8,1
1038,51,3.0,,3.0,0.0,8,1
1039,51,3.0,,4.0,476.0,8,1
1040,51,3.0,,4.0,0.0,8,1
1041,51,3.0,,3.0,0.0,8,1
1042,51,3.0,,3.0,0.0,8,1
1043,51,3.0,,3.0,0.0,8,1
1044,51,3.0,,3.0,0.0,8,1
1045,51,3.0,,3.0,0.0,8,1
1046,51,3.0,,3.0,0.0,8,1
1047,51,3.0,,3.0,0.0,8,1
1048,51,3.0,,4.0,0.0,8,1
1049,51,3.0,,3.0,0.0,8,1
1050,51,3.0,,3.0,0.0,8,1
1051,51,3.0,,3.0,0.0,8,1
1052,51,3.0,,3.0,0.0,8,1
1053,51,3.0,,3.0,0.0,8,1
1054,51,3.0,,4.0,0.0,8,1
1055,51,3.0,,3.0,0.0,8,1
1056,51,3.0,,4.0,0.0,8,1
1057,51,3.0,,3.0,0.0,8,1
1058,51,3.0,,3.0,0.0,8,1
1059,51,3.0,,3.0,0.0,8,1
1060,52,3.0,,2.0,0.0,8,1
1061,52,3.0,,2.0,0.0,8,1
1062,52,3.0,,2.0,0.0,8,1
1063,52,3.0,,2.0,0.0,8,1
1064,52,3.0,,2.0,0.0,8,1
1065,52,3.0,,1.0,0.0,8,1
1066,52,3.0,,2.0,0.0,8,1
1067,52,3.0,,2.0,0.0,8,1
1068,52,3.0,,2.0,0.0,8,1
1069,52,3.0,,2.0,0.0,8,1
1070,52,3.0,,1.0,0.0,8,1
1071,52,3.0,,2.0,0.0,8,1
1072,52,3.0,,2.0,0.0,8,1
1073,52,3.0,,2.0,0.0,8,1
1074,52,3.0,,2.0,0.0,8,1
1075,52,3.0,,1.0,0.0,8,1
1076,52,3.0,,2.0,0.0,8,1
1077,52,3.0,,2.0,0.0,8,1
1078,52,3.0,,1.0,0.0,8,1
1079,52,3.0,,2.0,0.0,8,1
1080,52,3.0,,1.0,0.0,8,1
1081,52,3.0,,2.0,0.0,8,1
1082,53,3.0,,3.0,0.0,8,1
1083,53,3.0,,4.0,0.0,8,1
1084,53,3.0,,3.0,0.0,8,1
1085,53,3.0,,3.0,0.0,8,1
1086,53,3.0,,4.0,0.0,8,1
1087,53,3.0,,3.0,0.0,8,1
1088,53,3.0,,4.0,0.0,8,1
1089,53,3.0,,3.0,0.0,8,1
1090,53,3.0,,3.0,0.0,8,1
1091,53,3.0,,3.0,0.0,8,1
1092,53,3.0,,3.0,0.0,8,1
1093,53,3.0,,4.0,0.0,8,1
1094,53,3.0,,3.0,0.0,8,1
1095,53,3.0,,3.0,0.0,8,1
1096,53,3.0,,4.0,0.0,8,1
1097,53,3.0,,3.0,0.0,8,1
1098,53,3.0,,3.0,0.0,8,1
1099,53,3.0,,3.0,0.0,8,1
1100,53,3.0,,3.0,0.0,8,1
1101,53,3.0,,3.0,0.0,8,1
1102,53,3.0,,3.0,0.0,8,1
1103,53,3.0,,3.0,0.0,8,1
1104,54,4.0,new_music,3.0,0.0,8,1
1105,54,4.0,new_music,3.0,0.0,8,1
1106,54,4.0,new_music,3.0,0.0,8,1
1107,54,4.0,new_music,4.0,0.0,8,1
1108,54,4.0,new_music,4.0,0.0,8,1
1109,54,4.0,new_music,3.0,0.0,8,1
1110,54,4.0,new_music,4.0,0.0,8,1
1111,54,4.0,new_music,4.0,0.0,8,1
1112,54,4.0,new_music,3.0,0.0,8,1
1113,54,4.0,new_music,3.0,0.0,8,1
1114,54,4.0,new_music,3.0,0.0,8,1
1115,54,4.0,new_music,3.0,0.0,8,1
1116,54,4.0,new_music,3.0,0.0,8,1
1117,54,4.0,new_music,3.0,0.0,8,1
1118,54,4.0,new_music,4.0,0.0,8,1
1119,54,4.0,new_music,3.0,0.0,8,1
1120,54,4.0,new_music,3.0,0.0,8,1
1121,54,4.0,new_music,3.0,0.0,8,1
1122,54,4.0,new_music,3.0,0.0,8,1
1123,54,4.0,new_music,3.0,0.0,8,1
1124,54,4.0,new_music,3.0,0.0,8,1
1125,54,4.0,new_music,3.0,0.0,8,1
1126,55,4.0,,3.0,0.0,8,1
1127,55,4.0,,3.0,0.0,8,1
1128,55,4.0,,3.0,0.0,8,1
1129,55,4.0,,3.0,0.0,8,1
1130,55,4.0,,3.0,0.0,8,1
1131,55,4.0,,3.0,0.0,8,1
1132,55,4.0,,4.0,0.0,8,1
1133,55,4.0,,3.0,0.0,8,1
1134,55,4.0,,4.0,0.0,8,1
1135,55,4.0,,4.0,0.0,8,1
1136,55,4.0,,4.0,0.0,8,1
1137,55,4.0,,3.0,0.0,8,1
1138,55,4.0,,3.0,0.0,8,1
1139,55,4.0,,3.0,0.0,8,1
1140,55,4.0,,3.0,0.0,8,1
1141,55,4.0,,4.0,0.0,8,1
1142,55,4.0,,3.0,0.0,8,1
1143,55,4.0,,3.0,0.0,8,1
1144,55,4.0,,3.0,0.0,8,1
1145,55,4.0,,3.0,0.0,8,1
1146,55,4.0,,3.0,0.0,8,1
1147,55,4.0,,3.0,0.0,8,1
1148,56,4.0,,3.0,0.0,8,1
1149,56,4.0,,3.0,0.0,8,1
1150,56,4.0,,3.0,0.0,8,1
1151,56,4.0,,3.0,0.0,8,1
1152,56,4.0,,3.0,0.0,8,1
1153,56,4.0,,4.0,0.0,8,1
1154,56,4.0,,3.0,0.0,8,1
1155,56,4.0,,3.0,0.0,8,1
1156,56,4.0,,3.0,0.0,8,1
1157,56,4.0,,3.0,0.0,8,1
1158,56,4.0,,3.0,0.0,8,1
1159,56,4.0,,3.0,0.0,8,1
1160,56,4.0,,3.0,0.0,8,1
1161,56,4.0,,4.0,0.0,8,1
1162,56,4.0,,3.0,0.0,8,1
1163,56,4.0,,4.0,0.0,8,1
1164,56,4.0,,3.0,470.0,8,1
1165,56,4.0,,4.0,354.0,8,1
1166,56,4.0,,4.0,0.0,8,1
1167,56,4.0,,3.0,0.0,8,1
1168,56,4.0,,3.0,0.0,8,1
1169,56,4.0,,3.0,0.0,8,1
1170,57,4.0,,3.0,0.0,8,1
1171,57,4.0,,3.0,0.0,8,1
1172,57,4.0,,3.0,0.0,8,1
1173,57,4.0,,3.0,0.0,8,1
1174,57,4.0,,3.0,0.0,8,1
1175,57,4.0,,3.0,0.0,8,1
1176,57,4.0,,3.0,0.0,8,1
1177,57,4.0,,3.0,0.0,8,1
1178,57,4.0,,4.0,0.0,8,1
1179,57,4.0,,3.0,0.0,8,1
1180,57,4.0,,4.0,0.0,8,1
1181,57,4.0,,3.0,0.0,8,1
1182,57,4.0,,4.0,0.0,8,1
1183,57,4.0,,3.0,0.0,8,1
1184,57,4.0,,3.0,0.0,8,1
1185,57,4.0,,3.0,0.0,8,1
1186,57,4.0,,3.0,0.0,8,1
1187,57,4.0,,4.0,0.0,8,1
1188,57,4.0,,3.0,0.0,8,1
1189,57,4.0,,4.0,0.0,8,1
1190,57,4.0,,3.0,0.0,8,1
1191,57,4.0,,3.0,0.0,8,1
1192,58,4.0,,3.0,0.0,8,1
1193,58,4.0,,3.0,0.0,8,1
1194,58,4.0,,3.0,0.0,8,1
1195,58,4.0,,3.0,0.0,8,1
1196,58,4.0,,3.0,0.0,8,1
1197,58,4.0,,3.0,0.0,8,1
1198,58,4.0,,4.0,0.0,8,1
1199,58,4.0,,3.0,0.0,8,1
1200,58,4.0,,3.0,0.0,8,1
1201,58,4.0,,3.0,0.0,8,1
1202,58,4.0,,3.0,0.0,8,1
1203,58,4.0,,3.0,0.0,8,1
1204,58,4.0,,4.0,0.0,8,1
1205,58,4.0,,3.0,0.0,8,1
1206,58,4.0,,3.0,0.0,8,1
1207,58,4.0,,4.0,0.0,8,1
1208,58,4.0,,3.0,0.0,8,1
1209,58,4.0,,4.0,0.0,8,1
1210,58,4.0,,4.0,0.0,8,1
1211,58,4.0,,3.0,0.0,8,1
1212,58,4.0,,3.0,0.0,8,1
1213,58,4.0,,3.0,0.0,8,1
1214,59,4.0,,3.0,0.0,8,1
1215,59,4.0,,3.0,0.0,8,1
1216,59,4.0,,3.0,0.0,8,1
1217,59,4.0,,3.0,0.0,8,1
1218,59,4.0,,4.0,0.0,8,1
1219,59,4.0,,4.0,0.0,8,1
1220,59,4.0,,3.0,0.0,8,1
1221,59,4.0,,3.0,0.0,8,1
1222,59,4.0,,3.0,0.0,8,1
1223,59,4.0,,3.0,0.0,8,1
1224,59,4.0,,4.0,0.0,8,1
1225,59,4.0,,3.0,0.0,8,1
1226,59,4.0,,3.0,0.0,8,1
1227,59,4.0,,3.0,0.0,8,1
1228,59,4.0,,3.0,0.0,8,1
1229,59,4.0,,3.0,0.0,8,1
1230,59,4.0,,3.0,0.0,8,1
1231,59,4.0,,4.0,0.0,8,1
1232,59,4.0,,3.0,0.0,8,1
1233,59,4.0,,3.0,0.0,8,1
1234,59,4.0,,4.0,0.0,8,1
1235,59,4.0,,3.0,0.0,8,1
1236,60,4.0,,3.0,0.0,8,1
1237,60,4.0,,3.0,0.0,8,1
1238,60,4.0,,3.0,0.0,8,1
1239,60,4.0,,4.0,0.0,8,1
1240,60,4.0,,3.0,0.0,8,1
1241,60,4.0,,3.0,0.0,8,1
1242,60,4.0,,3.0,0.0,8,1
1243,60,4.0,,3.0,0.0,8,1
1244,60,4.0,,3.0,0.0,8,1
1245,60,4.0,,3.0,0.0,8,1
1246,60,4.0,,4.0,0.0,8,1
1247,60,4.0,,3.0,0.0,8,1
1248,60,4.0,,3.0,0.0,8,1
1249,60,4.0,,4.0,0.0,8,1
1250,60,4.0,,4.0,0.0,8,1
1251,60,4.0,,3.0,0.0,8,1
1252,60,4.0,,4.0,0.0,8,1
1253,60,4.0,,3.0,0.0,8,1
1254,60,4.0,,3.0,0.0,8,1
1255,60,4.0,,3.0,0.0,8,1
1256,60,4.0,,3.0,0.0,8,1
1257,60,4.0,,3.0,0.0,8,1
1258,61,4.0,,3.0,0.0,8,1
1259,61,4.0,,3.0,0.0,8,1
1260,61,4.0,,3.0,0.0,8,1
1261,61,4.0,,4.0,0.0,8,1
1262,61,4.0,,4.0,0.0,8,1
1263,61,4.0,,3.0,0.0,8,1
1264,61,4.0,,3.0,0.0,8,1
1265,61,4.0,,3.0,0.0,8,1
1266,61,4.0,,3.0,0.0,8,1
1267,61,4.0,,4.0,0.0,8,1
1268,61,4.0,,3.0,0.0,8,1
1269,61,4.0,,3.0,0.0,8,1
1270,61,4.0,,4.0,0.0,8,1
1271,61,4.0,,3.0,0.0,8,1
1272,61,4.0,,3.0,0.0,8,1
1273,61,4.0,,3.0,0.0,8,1
1274,61,4.0,,4.0,0.0,8,1
1275,61,4.0,,3.0,0.0,8,1
1276,61,4.0,,3.0,0.0,8,1
1277,61,4.0,,3.0,0.0,8,1
1278,61,4.0,,3.0,0.0,8,1
1279,61,4.0,,3.0,0.0,8,1
1280,62,,,,,8,1
1281,63,4.0,,3.0,0.0,8,1
1282,63,4.0,,3.0,0.0,8,1
1283,63,4.0,,3.0,0.0,8,1
1284,63,4.0,,3.0,0.0,8,1
1285,63,4.0,,3.0,0.0,8,1
1286,63,4.0,,3.0,0.0,8,1
1287,63,4.0,,3.0,0.0,8,1
1288,63,4.0,,3.0,0.0,8,1
1289,63,4.0,,3.0,0.0,8,1
1290,63,4.0,,3.0,0.0,8,1
1291,63,4.0,,3.0,0.0,8,1
1292,63,4.0,,3.0,0.0,8,1
1293,63,4.0,,4.0,0.0,8,1
1294,63,4.0,,4.0,0.0,8,1
1295,63,4.0,,4.0,0.0,8,1
1296,63,4.0,,3.0,0.0,8,1
1297,63,4.0,,4.0,0.0,8,1
1298,63,4.0,,3.0,0.0,8,1
1299,63,4.0,,3.0,0.0,8,1
1300,63,4.0,,3.0,0.0,8,1
1301,63,4.0,,3.0,0.0,8,1
1302,63,4.0,,4.0,0.0,8,1
1303,64,4.0,,3.0,0.0,8,1
1304,64,4.0,,4.0,0.0,8,1
1305,64,4.0,,3.0,0.0,8,1
1306,64,4.0,,3.0,0.0,8,1
1307,64,4.0,,4.0,0.0,8,1
1308,64,4.0,,3.0,0.0,8,1
1309,64,4.0,,3.0,0.0,8,1
1310,64,4.0,,4.0,0.0,8,1
1311,64,4.0,,3.0,0.0,8,1
1312,64,4.0,,4.0,0.0,8,1
1313,64,4.0,,4.0,0.0,8,1
1314,64,4.0,,3.0,0.0,8,1
1315,64,4.0,,3.0,0.0,8,1
1316,64,4.0,,3.0,0.0,8,1
1317,64,4.0,,3.0,0.0,8,1
1318,64,4.0,,3.0,0.0,8,1
1319,64,4.0,,3.0,0.0,8,1
1320,64,4.0,,3.0,0.0,8,1
1321,64,4.0,,3.0,0.0,8,1
1322,64,4.0,,3.0,0.0,8,1
1323,64,4.0,,4.0,0.0,8,1
1324,64,4.0,,3.0,0.0,8,1
1325,65,4.0,,3.0,0.0,8,1
1326,65,4.0,,3.0,0.0,8,1
1327,65,4.0,,3.0,0.0,8,1
1328,65,4.0,,4.0,0.0,8,1
1329,65,4.0,,3.0,0.0,8,1
1330,65,4.0,,3.0,0.0,8,1
1331,65,4.0,,4.0,0.0,8,1
1332,65,4.0,,4.0,0.0,8,1
1333,65,4.0,,3.0,0.0,8,1
1334,65,4.0,,3.0,0.0,8,1
1335,65,4.0,,4.0,0.0,8,1
1336,65,4.0,,3.0,0.0,8,1
1337,65,4.0,,3.0,0.0,8,1
1338,65,4.0,,3.0,0.0,8,1
1339,65,4.0,,3.0,0.0,8,1
1340,65,4.0,,3.0,0.0,8,1
1341,65,4.0,,3.0,0.0,8,1
1342,65,4.0,,3.0,0.0,8,1
1343,65,4.0,,3.0,0.0,8,1
1344,65,4.0,,3.0,0.0,8,1
1345,65,4.0,,4.0,0.0,8,1
1346,65,4.0,,3.0,0.0,8,1
1347,66,4.0,,3.0,0.0,8,1
1348,66,4.0,,3.0,0.0,8,1
1349,66,4.0,,3.0,0.0,8,1
1350,66,4.0,,3.0,0.0,8,1
1351,66,4.0,,3.0,0.0,8,1
1352,66,4.0,,3.0,0.0,8,1
1353,66,4.0,,3.0,0.0,8,1
1354,66,4.0,,4.0,0.0,8,1
1355,66,4.0,,4.0,0.0,8,1
1356,66,4.0,,3.0,0.0,8,1
1357,66,4.0,,4.0,0.0,8,1
1358,66,4.0,,3.0,0.0,8,1
1359,66,4.0,,3.0,0.0,8,1
1360,66,4.0,,3.0,0.0,8,1
1361,66,4.0,,3.0,0.0,8,1
1362,66,4.0,,3.0,0.0,8,1
1363,66,4.0,,4.0,0.0,8,1
1364,66,4.0,,3.0,0.0,8,1
1365,66,4.0,,4.0,0.0,8,1
1366,66,4.0,,3.0,0.0,8,1
1367,66,4.0,,3.0,0.0,8,1
1368,66,4.0,,3.0,0.0,8,1
1369,67,4.0,,3.0,0.0,8,1
1370,67,4.0,,3.0,0.0,8,1
1371,67,4.0,,3.0,0.0,8,1
1372,67,4.0,,4.0,0.0,8,1
1373,67,4.0,,4.0,0.0,8,1
1374,67,4.0,,3.0,0.0,8,1
1375,67,4.0,,3.0,0.0,8,1
1376,67,4.0,,3.0,0.0,8,1
1377,67,4.0,,3.0,0.0,8,1
1378,67,4.0,,3.0,0.0,8,1
1379,67,4.0,,3.0,0.0,8,1
1380,67,4.0,,3.0,0.0,8,1
1381,67,4.0,,3.0,0.0,8,1
1382,67,4.0,,4.0,0.0,8,1
1383,67,4.0,,4.0,0.0,8,1
1384,67,4.0,,3.0,0.0,8,1
1385,67,4.0,,3.0,0.0,8,1
1386,67,4.0,,3.0,0.0,8,1
1387,67,4.0,,4.0,0.0,8,1
1388,67,4.0,,3.0,0.0,8,1
1389,67,4.0,,3.0,0.0,8,1
1390,67,4.0,,3.0,0.0,8,1
1391,68,4.0,,3.0,140.0,8,1
1392,68,4.0,,3.0,0.0,8,1
1393,68,4.0,,3.0,0.0,8,1
1394,68,4.0,,3.0,0.0,8,1
1395,68,4.0,,4.0,0.0,8,1
1396,68,4.0,,4.0,0.0,8,1
1397,68,4.0,,3.0,0.0,8,1
1398,68,4.0,,3.0,0.0,8,1
1399,68,4.0,,3.0,0.0,8,1
1400,68,4.0,,4.0,0.0,8,1
1401,68,4.0,,3.0,0.0,8,1
1402,68,4.0,,3.0,0.0,8,1
1403,68,4.0,,3.0,0.0,8,1
1404,68,4.0,,3.0,0.0,8,1
1405,68,4.0,,3.0,0.0,8,1
1406,68,4.0,,3.0,0.0,8,1
1407,68,4.0,,4.0,0.0,8,1
1408,68,4.0,,3.0,0.0,8,1
1409,68,4.0,,3.0,0.0,8,1
1410,68,4.0,,3.0,0.0,8,1
1411,68,4.0,,3.0,0.0,8,1
1412,68,4.0,,4.0,0.0,8,1
1413,69,4.0,,3.0,0.0,8,1
1414,69,4.0,,3.0,0.0,8,1
1415,69,4.0,,3.0,0.0,8,1
1416,69,4.0,,3.0,0.0,8,1
1417,69,4.0,,3.0,0.0,8,1
1418,69,4.0,,3.0,0.0,8,1
1419,69,4.0,,3.0,0.0,8,1
1420,69,4.0,,3.0,0.0,8,1
1421,69,4.0,,3.0,0.0,8,1
1422,69,4.0,,4.0,0.0,8,1
1423,69,4.0,,4.0,322.0,8,1
1424,69,4.0,,3.0,0.0,8,1
1425,69,4.0,,3.0,0.0,8,1
1426,69,4.0,,4.0,0.0,8,1
1427,69,4.0,,3.0,0.0,8,1
1428,69,4.0,,4.0,0.0,8,1
1429,69,4.0,,3.0,0.0,8,1
1430,69,4.0,,3.0,0.0,8,1
1431,69,4.0,,3.0,0.0,8,1
1432,69,4.0,,3.0,0.0,8,1
1433,69,4.0,,4.0,0.0,8,1
1434,69,4.0,,3.0,0.0,8,1
1435,70,4.0,,3.0,0.0,8,1
1436,70,4.0,,3.0,0.0,8,1
1437,70,4.0,,3.0,0.0,8,1
1438,70,4.0,,4.0,0.0,8,1
1439,70,4.0,,3.0,0.0,8,1
1440,70,4.0,,3.0,0.0,8,1
1441,70,4.0,,4.0,0.0,8,1
1442,70,4.0,,4.0,0.0,8,1
1443,70,4.0,,3.0,0.0,8,1
1444,70,4.0,,3.0,0.0,8,1
1445,70,4.0,,4.0,0.0,8,1
1446,70,4.0,,3.0,0.0,8,1
1447,70,4.0,,3.0,0.0,8,1
1448,70,4.0,,3.0,0.0,8,1
1449,70,4.0,,3.0,0.0,8,1
1450,70,4.0,,3.0,0.0,8,1
1451,70,4.0,,3.0,0.0,8,1
1452,70,4.0,,3.0,0.0,8,1
1453,70,4.0,,3.0,0.0,8,1
1454,70,4.0,,3.0,0.0,8,1
1455,70,4.0,,4.0,0.0,8,1
1456,70,4.0,,3.0,0.0,8,1
